\DATE= 'Thu Nov  7 19:48:43 2013'
\APERNAME= 'SL1'
\BUNIT= 'MJy/sr'
\CAL_SET= 'irs_2008_04_25-pb-pfc-trim-omeg-lhllbiasfork.cal'
\SOFTWARE= 'CUBISM'
\SOFT_VER= 'v1.6 (Nov-2008)'
\FILENAME= 'm31nuc_sl_sl1_cube__fits__SL1_sp.tbl'
\ COMMENT This file contains a spectral extraction created from
\ COMMENT an IRS spectral mapping dataset.
\ Extraction Area:
\ # Poly: 00:42:43.712,+41:16:37.45 ; 00:42:41.722,+41:16:15.41
\ #       00:42:44.825,+41:15:39.77 ; 00:42:46.816,+41:16:01.80
|   WAVELENGTH    |      FLUX       | FLUX_UNCERTAINTY |
|      real       |      real       |       real       |
|       um        |     MJy/sr      |      MJy/sr      |
         7.533706          23.78981          0.3394779
         7.595799          25.78452          0.3001225
         7.657894          23.19401          0.3081572
         7.719988          21.65058          0.2629024
         7.782082          21.90104          0.2594144
         7.844176          21.84205          0.2237489
         7.906271          21.18940          0.2363874
         7.968365          20.90586          0.2182216
         8.030458          20.17381          0.2149399
         8.092554          19.68736          0.2171578
         8.154648          20.10507          0.1951702
         8.216742          20.54494          0.2060006
         8.278836          20.96346          0.2131876
         8.340930          20.25244          0.2027186
         8.403025          19.54107          0.2068982
         8.465118          19.83617          0.2291149
         8.527213          19.84025          0.2217104
         8.589307          19.95824          0.2226923
         8.651402          20.75688          0.2192991
         8.713495          20.34289          0.2048690
         8.775590          19.27572          0.1916865
         8.837685          19.62411          0.1716324
         8.899778          20.42698          0.1684528
         8.961872          20.52088          0.1737482
         9.023967          19.99058          0.1608048
         9.086061          19.82071          0.1662858
         9.148155          20.01377          0.1631986
         9.210249          20.15373          0.1457901
         9.272344          20.58225          0.1527271
         9.334438          20.62592          0.1533591
         9.396532          20.97239          0.1464210
         9.458626          20.33532          0.1469842
         9.520720          20.56386          0.1373875
         9.582815          20.64084          0.1391349
         9.644909          21.31419          0.1428077
         9.707003          20.93296          0.1457044
         9.769097          21.23371          0.1883181
         9.831192          21.07868          0.1469939
         9.893286          20.66247          0.1476448
         9.955380          21.07543          0.1649289
         10.01747          20.89197          0.1790240
         10.07957          20.42167          0.1717933
         10.14166          20.49359          0.1721742
         10.20376          20.40079          0.1691655
         10.26585          20.15009          0.1537890
         10.32795          19.37471          0.1464190
         10.39004          19.42292          0.1560528
         10.45213          20.39192          0.1474402
         10.51423          20.10598          0.1441363
         10.57632          19.29752          0.1378467
         10.63842          19.69835          0.1453985
         10.70051          19.59217          0.1309536
         10.76260          19.15859          0.1272467
         10.82470          18.65290          0.1267561
         10.88679          18.90303          0.1361261
         10.94889          19.47184          0.1248937
         11.01098          19.06234          0.1376331
         11.07308          19.35801          0.1514740
         11.13517          19.61674          0.1467425
         11.19726          20.45029          0.1467560
         11.25936          20.62208          0.1428954
         11.32145          19.80672          0.1533423
         11.38355          19.27603          0.1626801
         11.44564          18.37531          0.1845573
         11.50774          18.10618          0.1744363
         11.56983          17.10748          0.1815020
         11.63192          16.64483          0.1882979
         11.69402          16.83811          0.1793829
         11.75611          16.77621          0.1695279
         11.81821          16.55711          0.1628640
         11.88030          16.83843          0.1549047
         11.94240          16.79355          0.1436768
         12.00449          17.00731          0.1524702
         12.06658          16.34675          0.1614910
         12.12868          16.44897          0.1418789
         12.19077          15.99401          0.1381736
         12.25287          15.80862          0.1456278
         12.31496          15.48194          0.1363202
         12.37705          14.79753          0.1410570
         12.43915          15.20176          0.1397919
         12.50124          15.27885          0.1396540
         12.56334          15.77241          0.1326073
         12.62543          15.95248          0.1430413
         12.68753          15.55284          0.1555887
         12.74962          16.11793          0.1576028
         12.81171          16.88199          0.1630183
         12.87381          15.87621          0.1659994
         12.93590          14.80368          0.1737880
         12.99800          14.99263          0.1836203
         13.06009          14.34423          0.1857703
         13.12218          14.36384          0.1859359
         13.18428          14.18346          0.1725426
         13.24637          13.86251          0.1725437
         13.30847          14.07283          0.1634200
         13.37056          13.76549          0.1597395
         13.43266          13.46168          0.1525152
         13.49475          13.62644          0.1531373
         13.55684          12.90651          0.1455589
         13.61894          13.93708          0.1515917
         13.68103          13.94476          0.1473783
         13.74313          13.76450          0.1651459
         13.80522          14.07890          0.1562513
         13.86732          13.72789          0.1591974
         13.92941          13.34107          0.1572186
         13.99150          13.71631          0.1709492
         14.05360          13.31047          0.1813843
         14.11569          13.03548          0.2058757
         14.17779          13.42401          0.2106806
         14.23988          13.99313          0.2140646
         14.30198          14.03575          0.2178512
         14.36407          12.77103          0.2231549
         14.42616          12.91883          0.2391510
         14.48826          13.11632          0.2233516
         14.55035          12.22982          0.2213913
         14.61245          11.95237          0.2106549
         14.67454          11.40355          0.1949620
         14.73664          10.49451          0.1631043
