\DATE= 'Mon Mar 17 20:48:51 2014'
\APERNAME= 'LL2'
\BUNIT= 'MJy/sr'
\CAL_SET= 'irs_2007_02_12-pb-pfc-trim-omeg-lhbiasfork.cal'
\SOFTWARE= 'CUBISM'
\SOFT_VER= 'v1.50 (June-2007)'
\FILENAME= 'm31nuc_ll2_nucUP.tbl'
\ COMMENT This file contains a spectral extraction created from
\ COMMENT an IRS spectral mapping dataset.
\ Extraction Area:
\ # Poly: 00:42:45.300,+41:15:52.80 ; 00:42:44.715,+41:15:46.32
\ #       00:42:45.289,+41:15:39.72 ; 00:42:45.875,+41:15:46.20
|   WAVELENGTH    |      FLUX       | FLUX_UNCERTAINTY |
|      real       |      real       |       real       |
|       um        |     MJy/sr      |      MJy/sr      |
         14.26661          11.35601          0.2702656
         14.35830          11.10495          0.2972475
         14.45000          10.91822          0.2677761
         14.54169          10.81250          0.2541112
         14.63338          10.76780          0.2740163
         14.72508          10.80064          0.3213682
         14.81677          10.01692          0.2921110
         14.90846          9.910138          0.2707295
         15.00015          9.690043          0.2754921
         15.09185          9.710655          0.2617611
         15.18354          10.33152          0.2568151
         15.27523          10.18905          0.2913629
         15.36693          8.071493          0.2670794
         15.45862          12.24147          0.2975301
         15.55031          16.70406          0.3008769
         15.64200          13.73130          0.2733611
         15.73370          10.91019          0.2515506
         15.82539          11.00566          0.2865466
         15.91708          10.95318          0.3177963
         16.00878          10.26067          0.3293744
         16.10047          10.00002          0.3042248
         16.19216          10.34666          0.3099128
         16.28386          10.52761          0.3472544
         16.37555          11.21130          0.3793967
         16.46724          11.33560          0.3268690
         16.55893          11.34553          0.3429730
         16.65063          11.13761          0.3384261
         16.74232          10.68426          0.3273573
         16.83401          10.80243          0.3525606
         16.92570          12.15064          0.3088628
         17.01740          12.28297          0.2950034
         17.10909          12.13548          0.2834660
         17.20078          11.49821          0.2838000
         17.29248          11.31055          0.3093930
         17.38417          11.46955          0.3056979
         17.47586          10.86069          0.3443360
         17.56756          10.42201          0.2787576
         17.65925          10.83873          0.2622826
         17.75094          10.64287          0.2675126
         17.84263          10.05051          0.2614271
         17.93433          10.38581          0.3167622
         18.02602          10.00129          0.2666599
         18.11771          9.535724          0.2742600
         18.20941          9.638872          0.2904220
         18.30110          9.721905          0.2795928
         18.39279          9.740339          0.2816487
         18.48449          9.493117          0.2944439
         18.57618          9.669823          0.2832747
         18.66787          11.68334          0.2965405
         18.75956          11.55708          0.4139456
         18.85126          9.563300          0.3288451
         18.94295          8.636238          0.3336575
         19.03464          9.166618          0.3139654
         19.12634          9.309378          0.4225706
         19.21803          9.090965          0.3982225
         19.30972          8.850148          0.4197122
         19.40141          9.601377          0.5005863
         19.49311          8.617672          0.5251833
         19.58480          8.746756          0.4588545
         19.67649          8.860239          0.5249242
         19.76819          8.822673          0.5627575
         19.85988          9.105507          0.4849711
         19.95157          7.897426          0.4263789
         20.04326          7.939671          0.4607656
         20.13496          8.049827          0.3865723
         20.22665          8.029597          0.4744846
         20.31834          8.940859          0.4228315
         20.41004          7.397896          0.4137468
         20.50173          7.638942          0.5216454
         20.59342          7.951360          0.4157748
         20.68512          7.321479          0.4555467
         20.77681          7.697764          0.4719444
         20.86850          7.594287          0.5608510
         20.96019          7.884673          0.5705343
         21.05189          7.507201          0.5054546
